trial_num,run,run_type,stim_condition,trial_in_contingency,current_good,contingency_trials,flower1,flower2,slot1_position,slot2_position,choice,rt,correct,reward,wait_time,iti,timestamp,trial_start_time,subject_id,session,age,gender,date
0,3,stimulation,active,0,2,26,48,40,right,left,2,1287.283182144165,True,True,2000.0,250.0,861.6156816482544,5.585330009460449,00002,1,31,m,2025-10-31_15-37-36
1,3,stimulation,active,1,2,26,48,40,left,right,2,1963.7346267700195,True,True,2000.0,250.0,867.8707809448242,11.840429067611694,00002,1,31,m,2025-10-31_15-37-36
2,3,stimulation,active,2,2,26,48,40,left,right,2,608.860969543457,True,True,2000.0,250.0,872.7740588188171,16.743706941604614,00002,1,31,m,2025-10-31_15-37-36
3,3,stimulation,active,3,2,26,48,40,right,left,2,713.1552696228027,True,True,2000.0,250.0,877.7799737453461,21.749621152877808,00002,1,31,m,2025-10-31_15-37-36
4,3,stimulation,active,4,2,26,48,40,right,left,2,709.8062038421631,True,True,2000.0,250.0,882.7817096710205,26.751358032226562,00002,1,31,m,2025-10-31_15-37-36
5,3,stimulation,active,5,2,26,48,40,right,left,2,696.8958377838135,True,True,2000.0,250.0,887.7741639614105,31.74381184577942,00002,1,31,m,2025-10-31_15-37-36
6,3,stimulation,active,6,2,26,48,40,right,left,2,644.402027130127,True,True,2000.0,250.0,892.7163078784943,36.68595600128174,00002,1,31,m,2025-10-31_15-37-36
7,3,stimulation,active,7,2,26,48,40,left,right,2,832.7219486236572,True,False,2000.0,250.0,897.845330953598,41.8149790763855,00002,1,31,m,2025-10-31_15-37-36
8,3,stimulation,active,8,2,26,48,40,right,left,1,576.9851207733154,False,False,2000.0,250.0,902.7172207832336,46.6868691444397,00002,1,31,m,2025-10-31_15-37-36
9,3,stimulation,active,9,2,26,48,40,left,right,1,788.7709140777588,False,True,2000.0,250.0,907.7991769313812,51.76882600784302,00002,1,31,m,2025-10-31_15-37-36
10,3,stimulation,active,10,2,26,48,40,right,left,1,628.375768661499,False,False,2000.0,250.0,912.7197387218475,56.68938708305359,00002,1,31,m,2025-10-31_15-37-36
11,3,stimulation,active,11,2,26,48,40,right,left,1,792.8528785705566,False,True,2000.0,250.0,917.805469751358,61.77511811256409,00002,1,31,m,2025-10-31_15-37-36
12,3,stimulation,active,12,2,26,48,40,right,left,1,1454.4107913970947,False,False,2000.0,250.0,923.5515167713165,67.52116513252258,00002,1,31,m,2025-10-31_15-37-36
13,3,stimulation,active,13,2,26,48,40,left,right,2,1437.1709823608398,True,True,2000.0,250.0,929.2826266288757,73.25227618217468,00002,1,31,m,2025-10-31_15-37-36
14,3,stimulation,active,14,2,26,48,40,left,right,2,704.7290802001953,True,True,2000.0,250.0,934.27707862854,78.2467269897461,00002,1,31,m,2025-10-31_15-37-36
15,3,stimulation,active,15,2,26,48,40,left,right,2,1756.4358711242676,True,True,2000.0,250.0,940.3252646923065,84.29491305351257,00002,1,31,m,2025-10-31_15-37-36
16,3,stimulation,active,16,2,26,48,40,left,right,2,1319.3726539611816,True,True,2000.0,250.0,945.9343597888947,89.90401005744934,00002,1,31,m,2025-10-31_15-37-36
17,3,stimulation,active,17,2,26,48,40,right,left,2,795.659065246582,True,False,2000.0,250.0,951.0212757587433,94.99092316627502,00002,1,31,m,2025-10-31_15-37-36
18,3,stimulation,active,18,2,26,48,40,right,left,1,544.2578792572021,False,False,2000.0,250.0,955.8589367866516,99.82858514785767,00002,1,31,m,2025-10-31_15-37-36
19,3,stimulation,active,19,2,26,48,40,left,right,2,639.9939060211182,True,True,2000.0,250.0,960.7869417667389,104.75658917427063,00002,1,31,m,2025-10-31_15-37-36
20,3,stimulation,active,20,2,26,48,40,left,right,2,766.9508457183838,True,True,2000.0,250.0,965.8458018302917,109.81544899940491,00002,1,31,m,2025-10-31_15-37-36
21,3,stimulation,active,21,2,26,48,40,right,left,2,692.5020217895508,True,True,2000.0,250.0,970.8350448608398,114.80469417572021,00002,1,31,m,2025-10-31_15-37-36
22,3,stimulation,active,22,2,26,48,40,left,right,2,405.06505966186523,True,True,2000.0,250.0,975.533698797226,119.50334811210632,00002,1,31,m,2025-10-31_15-37-36
23,3,stimulation,active,23,2,26,48,40,right,left,2,609.4300746917725,True,True,2000.0,250.0,980.437118768692,124.40676617622375,00002,1,31,m,2025-10-31_15-37-36
24,3,stimulation,active,24,2,26,48,40,left,right,2,444.5641040802002,True,True,2000.0,250.0,985.1736767292023,129.14332509040833,00002,1,31,m,2025-10-31_15-37-36
25,3,stimulation,active,25,2,26,48,40,left,right,2,425.4341125488281,True,True,2000.0,250.0,989.8908007144928,133.86044812202454,00002,1,31,m,2025-10-31_15-37-36
26,3,stimulation,active,0,1,28,48,40,left,right,2,476.61900520324707,False,False,2000.0,250.0,994.6578319072723,138.6274802684784,00002,1,31,m,2025-10-31_15-37-36
27,3,stimulation,active,1,1,28,48,40,right,left,2,545.9940433502197,False,True,2000.0,250.0,999.4940757751465,143.46372509002686,00002,1,31,m,2025-10-31_15-37-36
28,3,stimulation,active,2,1,28,48,40,left,right,2,644.0293788909912,False,True,2000.0,250.0,1004.429114818573,148.39876413345337,00002,1,31,m,2025-10-31_15-37-36
29,3,stimulation,active,3,1,28,48,40,right,left,2,592.8161144256592,False,False,2000.0,250.0,1009.3197839260101,153.28943300247192,00002,1,31,m,2025-10-31_15-37-36
30,3,stimulation,active,4,1,28,48,40,left,right,2,407.1662425994873,False,False,2000.0,250.0,1014.0197277069092,157.98937606811523,00002,1,31,m,2025-10-31_15-37-36
31,3,stimulation,active,5,1,28,48,40,right,left,1,528.8679599761963,True,False,2000.0,250.0,1018.847728729248,162.8173770904541,00002,1,31,m,2025-10-31_15-37-36
32,3,stimulation,active,6,1,28,48,40,left,right,1,1088.4971618652344,True,False,2000.0,250.0,1024.2297279834747,168.19938015937805,00002,1,31,m,2025-10-31_15-37-36
33,3,stimulation,active,7,1,28,48,40,left,right,2,389.2343044281006,False,False,2000.0,250.0,1028.9153389930725,172.88498520851135,00002,1,31,m,2025-10-31_15-37-36
34,3,stimulation,active,8,1,28,48,40,left,right,1,593.6839580535889,True,True,2000.0,250.0,1033.8027248382568,177.77237200737,00002,1,31,m,2025-10-31_15-37-36
35,3,stimulation,active,9,1,28,48,40,right,left,2,645.1871395111084,False,True,2000.0,250.0,1038.737450838089,182.70709800720215,00002,1,31,m,2025-10-31_15-37-36
36,3,stimulation,active,10,1,28,48,40,right,left,2,408.2009792327881,False,False,2000.0,250.0,1043.4396736621857,187.40932321548462,00002,1,31,m,2025-10-31_15-37-36
37,3,stimulation,active,11,1,28,48,40,right,left,2,950.2489566802979,False,True,2000.0,250.0,1048.6829838752747,192.65263295173645,00002,1,31,m,2025-10-31_15-37-36
38,3,stimulation,active,12,1,28,48,40,right,left,2,492.89989471435547,False,False,2000.0,250.0,1053.4690878391266,197.43873596191406,00002,1,31,m,2025-10-31_15-37-36
39,3,stimulation,active,13,1,28,48,40,right,left,1,388.8540267944336,True,True,2000.0,250.0,1058.1490778923035,202.11872506141663,00002,1,31,m,2025-10-31_15-37-36
40,3,stimulation,active,14,1,28,48,40,left,right,2,810.3311061859131,False,False,2000.0,250.0,1063.2522099018097,207.22185826301575,00002,1,31,m,2025-10-31_15-37-36
41,3,stimulation,active,15,1,28,48,40,left,right,1,591.9651985168457,True,True,2000.0,250.0,1068.1421456336975,212.11179304122925,00002,1,31,m,2025-10-31_15-37-36
42,3,stimulation,active,16,1,28,48,40,left,right,1,455.71184158325195,True,False,2000.0,250.0,1072.891036748886,216.86068511009216,00002,1,31,m,2025-10-31_15-37-36
43,3,stimulation,active,17,1,28,48,40,left,right,1,842.7028656005859,True,False,2000.0,250.0,1078.0262598991394,221.99590802192688,00002,1,31,m,2025-10-31_15-37-36
44,3,stimulation,active,18,1,28,48,40,right,left,1,586.4839553833008,True,False,2000.0,250.0,1082.9051728248596,226.8748209476471,00002,1,31,m,2025-10-31_15-37-36
45,3,stimulation,active,19,1,28,48,40,right,left,2,527.8568267822266,False,False,2000.0,250.0,1087.7265179157257,231.69617223739624,00002,1,31,m,2025-10-31_15-37-36
46,3,stimulation,active,20,1,28,48,40,left,right,2,754.8558712005615,False,True,2000.0,250.0,1092.7739398479462,236.74358797073364,00002,1,31,m,2025-10-31_15-37-36
47,3,stimulation,active,21,1,28,48,40,left,right,2,641.3731575012207,False,False,2000.0,250.0,1097.711847782135,241.6814968585968,00002,1,31,m,2025-10-31_15-37-36
48,3,stimulation,active,22,1,28,48,40,right,left,2,476.49383544921875,False,False,2000.0,250.0,1102.482769727707,246.45241928100586,00002,1,31,m,2025-10-31_15-37-36
49,3,stimulation,active,23,1,28,48,40,left,right,1,776.5109539031982,True,True,2000.0,250.0,1107.5502967834473,251.51994609832764,00002,1,31,m,2025-10-31_15-37-36
50,3,stimulation,active,24,1,28,48,40,left,right,1,387.2392177581787,True,True,2000.0,250.0,1112.232489824295,256.20213890075684,00002,1,31,m,2025-10-31_15-37-36
51,3,stimulation,active,25,1,28,48,40,right,left,1,540.6210422515869,True,True,2000.0,250.0,1117.068921804428,261.03856897354126,00002,1,31,m,2025-10-31_15-37-36
52,3,stimulation,active,26,1,28,48,40,left,right,1,439.2879009246826,True,False,2000.0,250.0,1121.8040609359741,265.7737090587616,00002,1,31,m,2025-10-31_15-37-36
53,3,stimulation,active,27,1,28,48,40,right,left,1,561.8832111358643,True,True,2000.0,250.0,1126.6606526374817,270.63030099868774,00002,1,31,m,2025-10-31_15-37-36
54,3,stimulation,active,0,2,29,48,40,left,right,1,462.5887870788574,False,False,2000.0,250.0,1131.4312489032745,275.4008982181549,00002,1,31,m,2025-10-31_15-37-36
55,3,stimulation,active,1,2,29,48,40,right,left,1,612.2839450836182,False,False,2000.0,250.0,1136.337337732315,280.3069860935211,00002,1,31,m,2025-10-31_15-37-36
56,3,stimulation,active,2,2,29,48,40,right,left,1,623.8498687744141,False,True,2000.0,250.0,1141.254582643509,285.22423100471497,00002,1,31,m,2025-10-31_15-37-36
57,3,stimulation,active,3,2,29,48,40,left,right,1,882.908821105957,False,False,2000.0,250.0,1146.432868719101,290.402517080307,00002,1,31,m,2025-10-31_15-37-36
58,3,stimulation,active,4,2,29,48,40,right,left,1,645.1411247253418,False,True,2000.0,250.0,1151.3727898597717,295.3424379825592,00002,1,31,m,2025-10-31_15-37-36
59,3,stimulation,active,5,2,29,48,40,right,left,1,630.1419734954834,False,True,2000.0,250.0,1156.298919916153,300.268568277359,00002,1,31,m,2025-10-31_15-37-36
60,3,stimulation,active,6,2,29,48,40,right,left,1,1999.8059272766113,False,True,2000.0,250.0,1162.5931949615479,306.5628430843353,00002,1,31,m,2025-10-31_15-37-36
61,3,stimulation,active,7,2,29,48,40,right,left,1,1160.750150680542,False,True,2000.0,250.0,1168.0465579032898,312.01620626449585,00002,1,31,m,2025-10-31_15-37-36
62,3,stimulation,active,8,2,29,48,40,left,right,1,507.1868896484375,False,True,2000.0,250.0,1172.8443069458008,316.81395506858826,00002,1,31,m,2025-10-31_15-37-36
63,3,stimulation,active,9,2,29,48,40,left,right,1,489.3050193786621,False,True,2000.0,250.0,1177.6256866455078,321.5953359603882,00002,1,31,m,2025-10-31_15-37-36
64,3,stimulation,active,10,2,29,48,40,right,left,1,663.8741493225098,False,True,2000.0,250.0,1182.5826268196106,326.55227494239807,00002,1,31,m,2025-10-31_15-37-36
65,3,stimulation,active,11,2,29,48,40,right,left,1,640.0628089904785,False,False,2000.0,250.0,1187.529471874237,331.4991190433502,00002,1,31,m,2025-10-31_15-37-36
66,3,stimulation,active,12,2,29,48,40,left,right,1,493.3760166168213,False,True,2000.0,250.0,1192.315907716751,336.28555512428284,00002,1,31,m,2025-10-31_15-37-36
67,3,stimulation,active,13,2,29,48,40,right,left,1,541.0950183868408,False,False,2000.0,250.0,1197.1475927829742,341.1172411441803,00002,1,31,m,2025-10-31_15-37-36
68,3,stimulation,active,14,2,29,48,40,right,left,1,456.0089111328125,False,False,2000.0,250.0,1201.894877910614,345.86452627182007,00002,1,31,m,2025-10-31_15-37-36
69,3,stimulation,active,15,2,29,48,40,left,right,2,1232.2039604187012,True,True,2000.0,250.0,1207.4190006256104,351.3886489868164,00002,1,31,m,2025-10-31_15-37-36
70,3,stimulation,active,16,2,29,48,40,left,right,2,677.7830123901367,True,True,2000.0,250.0,1212.3874406814575,356.35708808898926,00002,1,31,m,2025-10-31_15-37-36
71,3,stimulation,active,17,2,29,48,40,right,left,2,391.4158344268799,True,False,2000.0,250.0,1217.0714366436005,361.0410850048065,00002,1,31,m,2025-10-31_15-37-36
