trial_num,run,run_type,stim_condition,trial_in_contingency,current_good,contingency_trials,flower1,flower2,slot1_position,slot2_position,choice,rt,correct,reward,wait_time,iti,timestamp,trial_start_time,subject_id,session,age,gender,date
0,2,stimulation,active,0,2,29,36,1,right,left,2.0,2000.169277191162,True,True,2000.0,250.0,692.6581468582153,6.212386846542358,1432,1,31,m,2026-01-14_20-43-13
1,2,stimulation,active,1,2,29,36,1,right,left,2.0,383.23497772216797,True,True,2000.0,250.0,697.2528417110443,10.807081460952759,1432,1,31,m,2026-01-14_20-43-13
2,2,stimulation,active,2,2,29,36,1,left,right,,,,,2000.0,250.0,702.9714977741241,16.525737524032593,1432,1,31,m,2026-01-14_20-43-13
3,2,stimulation,active,3,2,29,36,1,left,right,,,,,2000.0,250.0,708.6962213516235,22.25046157836914,1432,1,31,m,2026-01-14_20-43-13
4,2,stimulation,active,4,2,29,36,1,right,left,,,,,2000.0,250.0,714.4113199710846,27.965561389923096,1432,1,31,m,2026-01-14_20-43-13
5,2,stimulation,active,5,2,29,36,1,left,right,,,,,2000.0,250.0,720.1331045627594,33.68734407424927,1432,1,31,m,2026-01-14_20-43-13
6,2,stimulation,active,6,2,29,36,1,left,right,,,,,2000.0,250.0,725.847767829895,39.40200757980347,1432,1,31,m,2026-01-14_20-43-13
7,2,stimulation,active,7,2,29,36,1,left,right,1.0,267.6706314086914,False,False,2000.0,250.0,730.3765230178833,43.93076276779175,1432,1,31,m,2026-01-14_20-43-13
8,2,stimulation,active,8,2,29,36,1,right,left,2.0,250.5946159362793,True,True,2000.0,250.0,734.8886065483093,48.44284725189209,1432,1,31,m,2026-01-14_20-43-13
9,2,stimulation,active,9,2,29,36,1,right,left,2.0,66.47944450378418,True,True,2000.0,250.0,739.2151687145233,52.769407749176025,1432,1,31,m,2026-01-14_20-43-13
10,2,stimulation,active,10,2,29,36,1,right,left,,,,,2000.0,250.0,744.990208864212,58.54444861412048,1432,1,31,m,2026-01-14_20-43-13
11,2,stimulation,active,11,2,29,36,1,right,left,2.0,33.49161148071289,True,True,2000.0,250.0,749.2841455936432,62.83838486671448,1432,1,31,m,2026-01-14_20-43-13
12,2,stimulation,active,12,2,29,36,1,right,left,,,,,2000.0,250.0,755.0440084934235,68.59824800491333,1432,1,31,m,2026-01-14_20-43-13
13,2,stimulation,active,13,2,29,36,1,left,right,1.0,67.92473793029785,False,False,2000.0,250.0,759.3724303245544,72.92667031288147,1432,1,31,m,2026-01-14_20-43-13
14,2,stimulation,active,14,2,29,36,1,left,right,1.0,495.88823318481445,False,True,2000.0,250.0,764.1283740997314,77.68261432647705,1432,1,31,m,2026-01-14_20-43-13
15,2,stimulation,active,15,2,29,36,1,left,right,1.0,402.28724479675293,False,False,2000.0,250.0,768.7914917469025,82.34573125839233,1432,1,31,m,2026-01-14_20-43-13
16,2,stimulation,active,16,2,29,36,1,left,right,,,,,2000.0,250.0,774.5616357326508,88.11587524414062,1432,1,31,m,2026-01-14_20-43-13
17,2,stimulation,active,17,2,29,36,1,right,left,2.0,51.28741264343262,True,True,2000.0,250.0,778.8735482692719,92.42778706550598,1432,1,31,m,2026-01-14_20-43-13
18,2,stimulation,active,18,2,29,36,1,right,left,2.0,351.73654556274414,True,False,2000.0,250.0,783.4862945079803,97.04053378105164,1432,1,31,m,2026-01-14_20-43-13
19,2,stimulation,active,19,2,29,36,1,right,left,2.0,250.7922649383545,True,False,2000.0,250.0,787.9970126152039,101.5512523651123,1432,1,31,m,2026-01-14_20-43-13
20,2,stimulation,active,20,2,29,36,1,left,right,1.0,295.8507537841797,False,False,2000.0,250.0,792.5541779994965,106.10841751098633,1432,1,31,m,2026-01-14_20-43-13
21,2,stimulation,active,21,2,29,36,1,left,right,1.0,914.851188659668,False,False,2000.0,250.0,797.7294912338257,111.28373098373413,1432,1,31,m,2026-01-14_20-43-13
22,2,stimulation,active,22,2,29,36,1,left,right,,,,,2000.0,250.0,803.4952507019043,117.04949045181274,1432,1,31,m,2026-01-14_20-43-13
23,2,stimulation,active,23,2,29,36,1,left,right,,,,,2000.0,250.0,809.2628116607666,122.81705164909363,1432,1,31,m,2026-01-14_20-43-13
24,2,stimulation,active,24,2,29,36,1,right,left,1.0,1390.1677131652832,False,False,2000.0,250.0,814.9136662483215,128.46790599822998,1432,1,31,m,2026-01-14_20-43-13
25,2,stimulation,active,25,2,29,36,1,left,right,2.0,50.440311431884766,True,True,2000.0,250.0,819.2246356010437,132.77887511253357,1432,1,31,m,2026-01-14_20-43-13
26,2,stimulation,active,26,2,29,36,1,left,right,2.0,687.5240802764893,True,True,2000.0,250.0,824.1730995178223,137.7273395061493,1432,1,31,m,2026-01-14_20-43-13
27,2,stimulation,active,27,2,29,36,1,left,right,,,,,2000.0,250.0,829.9390037059784,143.493243932724,1432,1,31,m,2026-01-14_20-43-13
28,2,stimulation,active,28,2,29,36,1,right,left,,,,,2000.0,250.0,835.7100598812103,149.26429986953735,1432,1,31,m,2026-01-14_20-43-13
29,2,stimulation,active,0,1,29,36,1,right,left,,,,,2000.0,250.0,841.4797904491425,155.03403043746948,1432,1,31,m,2026-01-14_20-43-13
30,2,stimulation,active,1,1,29,36,1,left,right,,,,,2000.0,250.0,847.2522571086884,160.8064968585968,1432,1,31,m,2026-01-14_20-43-13
31,2,stimulation,active,2,1,29,36,1,left,right,1.0,200.7439136505127,True,False,2000.0,250.0,851.7130854129791,165.267324924469,1432,1,31,m,2026-01-14_20-43-13
32,2,stimulation,active,3,1,29,36,1,right,left,2.0,500.35762786865234,False,False,2000.0,250.0,856.4740462303162,170.02828645706177,1432,1,31,m,2026-01-14_20-43-13
33,2,stimulation,active,4,1,29,36,1,right,left,,,,,2000.0,250.0,862.2462992668152,175.8005392551422,1432,1,31,m,2026-01-14_20-43-13
34,2,stimulation,active,5,1,29,36,1,right,left,2.0,267.9924964904785,False,False,2000.0,250.0,866.7760310173035,180.3302707672119,1432,1,31,m,2026-01-14_20-43-13
35,2,stimulation,active,6,1,29,36,1,left,right,1.0,66.67208671569824,True,False,2000.0,250.0,871.1031305789948,184.65736961364746,1432,1,31,m,2026-01-14_20-43-13
36,2,stimulation,active,7,1,29,36,1,left,right,1.0,286.25941276550293,True,False,2000.0,250.0,875.6502861976624,189.20452618598938,1432,1,31,m,2026-01-14_20-43-13
37,2,stimulation,active,8,1,29,36,1,right,left,2.0,486.3851070404053,False,False,2000.0,250.0,880.3979361057281,193.9521758556366,1432,1,31,m,2026-01-14_20-43-13
38,2,stimulation,active,9,1,29,36,1,left,right,1.0,824.9542713165283,True,True,2000.0,250.0,885.4839372634888,199.03817677497864,1432,1,31,m,2026-01-14_20-43-13
39,2,stimulation,active,10,1,29,36,1,left,right,1.0,1072.934865951538,True,True,2000.0,250.0,890.8183877468109,204.37262749671936,1432,1,31,m,2026-01-14_20-43-13
40,2,stimulation,active,11,1,29,36,1,left,right,1.0,16.669511795043945,True,True,2000.0,250.0,895.0963118076324,208.6505515575409,1432,1,31,m,2026-01-14_20-43-13
41,2,stimulation,active,12,1,29,36,1,right,left,2.0,218.98627281188965,False,False,2000.0,250.0,899.5752382278442,213.12947964668274,1432,1,31,m,2026-01-14_20-43-13
42,2,stimulation,active,13,1,29,36,1,left,right,1.0,218.66083145141602,True,True,2000.0,250.0,904.0545892715454,217.60882878303528,1432,1,31,m,2026-01-14_20-43-13
43,2,stimulation,active,14,1,29,36,1,left,right,1.0,265.6238079071045,True,True,2000.0,250.0,908.5812695026398,222.13550877571106,1432,1,31,m,2026-01-14_20-43-13
44,2,stimulation,active,15,1,29,36,1,left,right,1.0,216.7379856109619,True,True,2000.0,250.0,913.0586552619934,226.61289477348328,1432,1,31,m,2026-01-14_20-43-13
45,2,stimulation,active,16,1,29,36,1,left,right,1.0,100.23140907287598,True,True,2000.0,250.0,917.4194796085358,230.97371912002563,1432,1,31,m,2026-01-14_20-43-13
46,2,stimulation,active,17,1,29,36,1,left,right,1.0,353.0707359313965,True,True,2000.0,250.0,922.0332169532776,235.58745670318604,1432,1,31,m,2026-01-14_20-43-13
47,2,stimulation,active,18,1,29,36,1,right,left,2.0,362.5044822692871,False,False,2000.0,250.0,926.6558699607849,240.2101104259491,1432,1,31,m,2026-01-14_20-43-13
48,2,stimulation,active,19,1,29,36,1,right,left,2.0,301.81384086608887,False,False,2000.0,250.0,931.2180652618408,244.77230525016785,1432,1,31,m,2026-01-14_20-43-13
49,2,stimulation,active,20,1,29,36,1,right,left,2.0,302.25181579589844,False,True,2000.0,250.0,935.7812328338623,249.3354721069336,1432,1,31,m,2026-01-14_20-43-13
50,2,stimulation,active,21,1,29,36,1,left,right,1.0,268.97144317626953,True,False,2000.0,250.0,940.3108727931976,253.8651123046875,1432,1,31,m,2026-01-14_20-43-13
51,2,stimulation,active,22,1,29,36,1,right,left,2.0,302.25467681884766,False,False,2000.0,250.0,944.8739233016968,258.4281630516052,1432,1,31,m,2026-01-14_20-43-13
52,2,stimulation,active,23,1,29,36,1,left,right,1.0,1432.2266578674316,True,False,2000.0,250.0,950.5668799877167,264.1211197376251,1432,1,31,m,2026-01-14_20-43-13
53,2,stimulation,active,24,1,29,36,1,right,left,2.0,331.8934440612793,False,False,2000.0,250.0,955.1591019630432,268.7133414745331,1432,1,31,m,2026-01-14_20-43-13
54,2,stimulation,active,25,1,29,36,1,right,left,2.0,330.181360244751,False,False,2000.0,250.0,959.7502872943878,273.30452704429626,1432,1,31,m,2026-01-14_20-43-13
55,2,stimulation,active,26,1,29,36,1,left,right,1.0,620.1131343841553,True,True,2000.0,250.0,964.6309287548065,278.18516850471497,1432,1,31,m,2026-01-14_20-43-13
56,2,stimulation,active,27,1,29,36,1,left,right,1.0,404.4318199157715,True,True,2000.0,250.0,969.2965981960297,282.85083770751953,1432,1,31,m,2026-01-14_20-43-13
57,2,stimulation,active,28,1,29,36,1,left,right,1.0,1475.4667282104492,True,True,2000.0,250.0,975.0328211784363,288.58706045150757,1432,1,31,m,2026-01-14_20-43-13
58,2,stimulation,active,0,2,26,36,1,right,left,2.0,453.0479907989502,True,False,2000.0,250.0,979.7475066184998,293.3017466068268,1432,1,31,m,2026-01-14_20-43-13
59,2,stimulation,active,1,2,26,36,1,left,right,1.0,621.7067241668701,False,False,2000.0,250.0,984.6295864582062,298.18382596969604,1432,1,31,m,2026-01-14_20-43-13
60,2,stimulation,active,2,2,26,36,1,right,left,2.0,236.18531227111816,True,True,2000.0,250.0,989.1263024806976,302.6805419921875,1432,1,31,m,2026-01-14_20-43-13
61,2,stimulation,active,3,2,26,36,1,left,right,1.0,283.98680686950684,False,False,2000.0,250.0,993.6719243526459,307.2261643409729,1432,1,31,m,2026-01-14_20-43-13
62,2,stimulation,active,4,2,26,36,1,left,right,1.0,499.90153312683105,False,False,2000.0,250.0,998.4328048229218,311.9870445728302,1432,1,31,m,2026-01-14_20-43-13
63,2,stimulation,active,5,2,26,36,1,left,right,1.0,817.2600269317627,False,False,2000.0,250.0,1003.5107457637787,317.06498622894287,1432,1,31,m,2026-01-14_20-43-13
64,2,stimulation,active,6,2,26,36,1,left,right,1.0,1964.3142223358154,False,True,2000.0,250.0,1009.7349474430084,323.28918743133545,1432,1,31,m,2026-01-14_20-43-13
65,2,stimulation,active,7,2,26,36,1,left,right,1.0,317.704439163208,False,True,2000.0,250.0,1014.3126268386841,327.8668668270111,1432,1,31,m,2026-01-14_20-43-13
66,2,stimulation,active,8,2,26,36,1,right,left,2.0,417.156457901001,True,True,2000.0,250.0,1018.9898164272308,332.54405641555786,1432,1,31,m,2026-01-14_20-43-13
67,2,stimulation,active,9,2,26,36,1,right,left,2.0,502.6428699493408,True,False,2000.0,250.0,1023.7535388469696,337.3077783584595,1432,1,31,m,2026-01-14_20-43-13
68,2,stimulation,active,10,2,26,36,1,right,left,2.0,283.5578918457031,True,True,2000.0,250.0,1028.2978308200836,341.85207056999207,1432,1,31,m,2026-01-14_20-43-13
69,2,stimulation,active,11,2,26,36,1,right,left,2.0,384.31763648986816,True,True,2000.0,250.0,1032.9433336257935,346.4975733757019,1432,1,31,m,2026-01-14_20-43-13
70,2,stimulation,active,12,2,26,36,1,left,right,1.0,538.8388633728027,False,False,2000.0,250.0,1037.7427706718445,351.29701042175293,1432,1,31,m,2026-01-14_20-43-13
71,2,stimulation,active,13,2,26,36,1,right,left,2.0,283.7531566619873,True,True,2000.0,250.0,1042.2864365577698,355.84067606925964,1432,1,31,m,2026-01-14_20-43-13
72,2,stimulation,active,14,2,26,36,1,left,right,1.0,549.9725341796875,False,False,2000.0,250.0,1047.0969874858856,360.65122723579407,1432,1,31,m,2026-01-14_20-43-13
