trial_num,run,run_type,stim_condition,trial_in_contingency,current_good,contingency_trials,flower1,flower2,slot1_position,slot2_position,choice,rt,correct,reward,wait_time,iti,timestamp,trial_start_time,subject_id,session,age,gender,date
0,7,stimulation,sham,0,2,27,16,27,right,left,2.0,1464.658498764038,True,False,2000.0,250.0,3038.1501231193542,5.725657939910889,1432,1,31,m,2026-01-14_20-43-13
1,7,stimulation,sham,1,2,27,16,27,right,left,2.0,264.71948623657227,True,True,2000.0,250.0,3042.6763787269592,10.25191330909729,1432,1,31,m,2026-01-14_20-43-13
2,7,stimulation,sham,2,2,27,16,27,right,left,,,,,2000.0,250.0,3048.443526506424,16.01906108856201,1432,1,31,m,2026-01-14_20-43-13
3,7,stimulation,sham,3,2,27,16,27,right,left,,,,,2000.0,250.0,3054.2104341983795,21.78596830368042,1432,1,31,m,2026-01-14_20-43-13
4,7,stimulation,sham,4,2,27,16,27,right,left,,,,,2000.0,250.0,3059.9768404960632,27.552374601364136,1432,1,31,m,2026-01-14_20-43-13
5,7,stimulation,sham,5,2,27,16,27,left,right,,,,,2000.0,250.0,3065.7446880340576,33.3202223777771,1432,1,31,m,2026-01-14_20-43-13
6,7,stimulation,sham,6,2,27,16,27,right,left,,,,,2000.0,250.0,3071.509516477585,39.08505082130432,1432,1,31,m,2026-01-14_20-43-13
7,7,stimulation,sham,7,2,27,16,27,right,left,,,,,2000.0,250.0,3077.276214838028,44.851749420166016,1432,1,31,m,2026-01-14_20-43-13
8,7,stimulation,sham,8,2,27,16,27,right,left,,,,,2000.0,250.0,3083.04709982872,50.622634410858154,1432,1,31,m,2026-01-14_20-43-13
9,7,stimulation,sham,9,2,27,16,27,right,left,,,,,2000.0,250.0,3088.8091197013855,56.38465428352356,1432,1,31,m,2026-01-14_20-43-13
10,7,stimulation,sham,10,2,27,16,27,left,right,,,,,2000.0,250.0,3094.5821301937103,62.15766477584839,1432,1,31,m,2026-01-14_20-43-13
11,7,stimulation,sham,11,2,27,16,27,left,right,,,,,2000.0,250.0,3100.346353292465,67.92188811302185,1432,1,31,m,2026-01-14_20-43-13
12,7,stimulation,sham,12,2,27,16,27,right,left,,,,,2000.0,250.0,3106.1082503795624,73.68378472328186,1432,1,31,m,2026-01-14_20-43-13
13,7,stimulation,sham,13,2,27,16,27,right,left,,,,,2000.0,250.0,3111.8739409446716,79.44947552680969,1432,1,31,m,2026-01-14_20-43-13
14,7,stimulation,sham,14,2,27,16,27,left,right,,,,,2000.0,250.0,3117.648504257202,85.22403931617737,1432,1,31,m,2026-01-14_20-43-13
15,7,stimulation,sham,15,2,27,16,27,right,left,,,,,2000.0,250.0,3123.424411535263,90.9999463558197,1432,1,31,m,2026-01-14_20-43-13
16,7,stimulation,sham,16,2,27,16,27,left,right,,,,,2000.0,250.0,3129.1951620578766,96.77069664001465,1432,1,31,m,2026-01-14_20-43-13
17,7,stimulation,sham,17,2,27,16,27,right,left,,,,,2000.0,250.0,3134.9577515125275,102.53328585624695,1432,1,31,m,2026-01-14_20-43-13
18,7,stimulation,sham,18,2,27,16,27,left,right,,,,,2000.0,250.0,3140.7238483428955,108.29938316345215,1432,1,31,m,2026-01-14_20-43-13
19,7,stimulation,sham,19,2,27,16,27,left,right,,,,,2000.0,250.0,3146.489277601242,114.06481218338013,1432,1,31,m,2026-01-14_20-43-13
20,7,stimulation,sham,20,2,27,16,27,left,right,,,,,2000.0,250.0,3152.255871295929,119.83140587806702,1432,1,31,m,2026-01-14_20-43-13
21,7,stimulation,sham,21,2,27,16,27,right,left,,,,,2000.0,250.0,3158.0205359458923,125.59607028961182,1432,1,31,m,2026-01-14_20-43-13
22,7,stimulation,sham,22,2,27,16,27,left,right,,,,,2000.0,250.0,3163.7895596027374,131.3650941848755,1432,1,31,m,2026-01-14_20-43-13
23,7,stimulation,sham,23,2,27,16,27,left,right,1.0,217.43416786193848,False,False,2000.0,250.0,3168.2688829898834,135.84441757202148,1432,1,31,m,2026-01-14_20-43-13
24,7,stimulation,sham,24,2,27,16,27,right,left,,,,,2000.0,250.0,3174.0380141735077,141.61354875564575,1432,1,31,m,2026-01-14_20-43-13
25,7,stimulation,sham,25,2,27,16,27,left,right,,,,,2000.0,250.0,3179.804219007492,147.37975358963013,1432,1,31,m,2026-01-14_20-43-13
26,7,stimulation,sham,26,2,27,16,27,right,left,,,,,2000.0,250.0,3185.571781873703,153.14731645584106,1432,1,31,m,2026-01-14_20-43-13
27,7,stimulation,sham,0,1,26,16,27,right,left,,,,,2000.0,250.0,3191.336635351181,158.9121699333191,1432,1,31,m,2026-01-14_20-43-13
28,7,stimulation,sham,1,1,26,16,27,right,left,,,,,2000.0,250.0,3197.1035592556,164.67909407615662,1432,1,31,m,2026-01-14_20-43-13
29,7,stimulation,sham,2,1,26,16,27,right,left,,,,,2000.0,250.0,3202.8651099205017,170.44064450263977,1432,1,31,m,2026-01-14_20-43-13
30,7,stimulation,sham,3,1,26,16,27,left,right,1.0,1377.2671222686768,True,True,2000.0,250.0,3208.5039162635803,176.0794506072998,1432,1,31,m,2026-01-14_20-43-13
31,7,stimulation,sham,4,1,26,16,27,right,left,,,,,2000.0,250.0,3214.2696788311005,181.84521341323853,1432,1,31,m,2026-01-14_20-43-13
32,7,stimulation,sham,5,1,26,16,27,right,left,,,,,2000.0,250.0,3220.035243988037,187.61077857017517,1432,1,31,m,2026-01-14_20-43-13
33,7,stimulation,sham,6,1,26,16,27,left,right,,,,,2000.0,250.0,3225.80157661438,193.37711119651794,1432,1,31,m,2026-01-14_20-43-13
34,7,stimulation,sham,7,1,26,16,27,right,left,,,,,2000.0,250.0,3231.5682785511017,199.14381313323975,1432,1,31,m,2026-01-14_20-43-13
35,7,stimulation,sham,8,1,26,16,27,left,right,2.0,279.2525291442871,False,False,2000.0,250.0,3236.1077828407288,203.68331742286682,1432,1,31,m,2026-01-14_20-43-13
36,7,stimulation,sham,9,1,26,16,27,right,left,,,,,2000.0,250.0,3241.866434812546,209.44196963310242,1432,1,31,m,2026-01-14_20-43-13
37,7,stimulation,sham,10,1,26,16,27,right,left,,,,,2000.0,250.0,3247.6387355327606,215.21427011489868,1432,1,31,m,2026-01-14_20-43-13
38,7,stimulation,sham,11,1,26,16,27,right,left,,,,,2000.0,250.0,3253.4013290405273,220.97686409950256,1432,1,31,m,2026-01-14_20-43-13
39,7,stimulation,sham,12,1,26,16,27,left,right,,,,,2000.0,250.0,3259.1667835712433,226.74231839179993,1432,1,31,m,2026-01-14_20-43-13
40,7,stimulation,sham,13,1,26,16,27,right,left,,,,,2000.0,250.0,3264.9331459999084,232.5086808204651,1432,1,31,m,2026-01-14_20-43-13
41,7,stimulation,sham,14,1,26,16,27,right,left,,,,,2000.0,250.0,3270.692384004593,238.26791882514954,1432,1,31,m,2026-01-14_20-43-13
42,7,stimulation,sham,15,1,26,16,27,right,left,,,,,2000.0,250.0,3276.4616708755493,244.03720545768738,1432,1,31,m,2026-01-14_20-43-13
43,7,stimulation,sham,16,1,26,16,27,right,left,,,,,2000.0,250.0,3282.232645750046,249.80818057060242,1432,1,31,m,2026-01-14_20-43-13
44,7,stimulation,sham,17,1,26,16,27,right,left,,,,,2000.0,250.0,3287.9998989105225,255.57543349266052,1432,1,31,m,2026-01-14_20-43-13
45,7,stimulation,sham,18,1,26,16,27,left,right,,,,,2000.0,250.0,3293.762680053711,261.3382143974304,1432,1,31,m,2026-01-14_20-43-13
46,7,stimulation,sham,19,1,26,16,27,left,right,,,,,2000.0,250.0,3299.5325286388397,267.1080629825592,1432,1,31,m,2026-01-14_20-43-13
47,7,stimulation,sham,20,1,26,16,27,right,left,,,,,2000.0,250.0,3305.2982230186462,272.87375807762146,1432,1,31,m,2026-01-14_20-43-13
48,7,stimulation,sham,21,1,26,16,27,left,right,,,,,2000.0,250.0,3311.059860944748,278.63539600372314,1432,1,31,m,2026-01-14_20-43-13
49,7,stimulation,sham,22,1,26,16,27,right,left,2.0,16.56961441040039,False,False,2000.0,250.0,3315.337398290634,282.9129328727722,1432,1,31,m,2026-01-14_20-43-13
50,7,stimulation,sham,23,1,26,16,27,left,right,,,,,2000.0,250.0,3321.1054787635803,288.68101358413696,1432,1,31,m,2026-01-14_20-43-13
51,7,stimulation,sham,24,1,26,16,27,right,left,,,,,2000.0,250.0,3326.871081829071,294.4466166496277,1432,1,31,m,2026-01-14_20-43-13
52,7,stimulation,sham,25,1,26,16,27,right,left,,,,,2000.0,250.0,3332.645699262619,300.2212338447571,1432,1,31,m,2026-01-14_20-43-13
53,7,stimulation,sham,0,2,29,16,27,right,left,,,,,2000.0,250.0,3338.4133048057556,305.9888393878937,1432,1,31,m,2026-01-14_20-43-13
54,7,stimulation,sham,1,2,29,16,27,left,right,,,,,2000.0,250.0,3344.18372964859,311.75926423072815,1432,1,31,m,2026-01-14_20-43-13
55,7,stimulation,sham,2,2,29,16,27,left,right,,,,,2000.0,250.0,3349.946758031845,317.52229285240173,1432,1,31,m,2026-01-14_20-43-13
56,7,stimulation,sham,3,2,29,16,27,left,right,,,,,2000.0,250.0,3355.71622633934,323.29176139831543,1432,1,31,m,2026-01-14_20-43-13
57,7,stimulation,sham,4,2,29,16,27,right,left,,,,,2000.0,250.0,3361.4863789081573,329.0619134902954,1432,1,31,m,2026-01-14_20-43-13
58,7,stimulation,sham,5,2,29,16,27,right,left,,,,,2000.0,250.0,3367.2591943740845,334.83472871780396,1432,1,31,m,2026-01-14_20-43-13
59,7,stimulation,sham,6,2,29,16,27,right,left,,,,,2000.0,250.0,3373.027494907379,340.60302996635437,1432,1,31,m,2026-01-14_20-43-13
60,7,stimulation,sham,7,2,29,16,27,left,right,,,,,2000.0,250.0,3378.794233083725,346.36976766586304,1432,1,31,m,2026-01-14_20-43-13
61,7,stimulation,sham,8,2,29,16,27,left,right,,,,,2000.0,250.0,3384.5602061748505,352.1357407569885,1432,1,31,m,2026-01-14_20-43-13
62,7,stimulation,sham,9,2,29,16,27,left,right,,,,,2000.0,250.0,3390.327935695648,357.9034700393677,1432,1,31,m,2026-01-14_20-43-13
63,7,stimulation,sham,10,2,29,16,27,left,right,,,,,2000.0,250.0,3396.0950360298157,363.6705710887909,1432,1,31,m,2026-01-14_20-43-13
